{
  "bundle": {
    "bundle": {
      "resourceType": "Bundle",
      "type": "transaction",
      "entry": [
        {
          "fullUrl": "https://twcore.hapi.fhir.tw//Organization/9ab0ea1b-adfa-42f4-b73a-d7092a71037f",
          "resource": {
            "id": "9ab0ea1b-adfa-42f4-b73a-d7092a71037f",
            "resourceType": "Organization",
            "identifier": [
              {
                "type": {
                  "coding": [
                    {
                      "system": "http://terminology.hl7.org/CodeSystem/v2-0203",
                      "code": "PRN"
                    }
                  ]
                },
                "system": "https://twcore.mohw.gov.tw/ig/twcore/CodeSystem/organization-identifier-tw",
                "value": "0602030026"
              }
            ],
            "active": true,
            "name": "高雄榮民總醫院"
          },
          "request": {
            "method": "PUT",
            "url": "Organization/9ab0ea1b-adfa-42f4-b73a-d7092a71037f"
          }
        },
        {
          "fullUrl": "https://twcore.hapi.fhir.tw//Patient/20c3fe2f-d7b5-403b-955d-c98fafcb1ba9",
          "resource": {
            "resourceType": "Patient",
            "meta": {
              "profile": [
                "https://twcore.mohw.gov.tw/ig/twcore/StructureDefinition/Patient-twcore"
              ]
            },
            "identifier": [
              {
                "system": "http://hospital.local/patient-id",
                "value": "岳-世明-2018-09-29"
              }
            ],
            "name": [
              {
                "use": "official",
                "family": "岳",
                "given": [
                  "世明"
                ]
              }
            ],
            "gender": "male",
            "birthDate": "2018-09-29",
            "managingOrganization": {
              "reference": "Organization/0602030026"
            },
            "id": "岳-世明-2018-09-29"
          },
          "request": {
            "method": "PUT",
            "url": "/Patient/20c3fe2f-d7b5-403b-955d-c98fafcb1ba9"
          }
        },
        {
          "fullUrl": "https://twcore.hapi.fhir.tw//Observation/c4a7e2d3-d2e2-45e9-9b78-85d8cebe66b5",
          "resource": {
            "resourceType": "Observation",
            "meta": {
              "profile": [
                "https://twcore.mohw.gov.tw/ig/twcore/StructureDefinition/Observation-vitalSigns-twcore"
              ]
            },
            "status": "final",
            "category": [
              {
                "coding": [
                  {
                    "system": "http://terminology.hl7.org/CodeSystem/observation-category",
                    "code": "vital-signs",
                    "display": "Vital Signs"
                  }
                ]
              }
            ],
            "code": {
              "coding": [
                {
                  "system": "http://loinc.org",
                  "code": "85353-1",
                  "display": "Vital signs, weight, height, head circumference, oxygen saturation and BMI panel"
                }
              ],
              "text": "Vital Signs Panel"
            },
            "subject": {
              "reference": "Patient/岳-世明-2018-09-29"
            },
            "component": [
              {
                "code": {
                  "coding": [
                    {
                      "system": "http://loinc.org",
                      "code": "8302-2",
                      "display": "Body height"
                    }
                  ],
                  "text": "Body Height"
                },
                "valueQuantity": {
                  "value": 171.9,
                  "unit": "cm",
                  "system": "http://unitsofmeasure.org",
                  "code": "cm"
                }
              },
              {
                "code": {
                  "coding": [
                    {
                      "system": "http://loinc.org",
                      "code": "29463-7",
                      "display": "Body weight"
                    }
                  ],
                  "text": "Body Weight"
                },
                "valueQuantity": {
                  "value": 76.9,
                  "unit": "kg",
                  "system": "http://unitsofmeasure.org",
                  "code": "kg"
                }
              },
              {
                "code": {
                  "coding": [
                    {
                      "system": "http://loinc.org",
                      "code": "39156-5",
                      "display": "Body mass index (BMI)"
                    }
                  ],
                  "text": "BMI"
                },
                "valueQuantity": {
                  "value": 26.02,
                  "unit": "kg/m2",
                  "system": "http://unitsofmeasure.org",
                  "code": "kg/m2"
                }
              }
            ],
            "id": "c4a7e2d3-d2e2-45e9-9b78-85d8cebe66b5"
          },
          "request": {
            "method": "PUT",
            "url": "/Observation/c4a7e2d3-d2e2-45e9-9b78-85d8cebe66b5"
          }
        },
        {
          "fullUrl": "https://twcore.hapi.fhir.tw//Patient/001a162e-e7a6-4317-83d3-8b8f21816550",
          "resource": {
            "resourceType": "Patient",
            "meta": {
              "profile": [
                "https://twcore.mohw.gov.tw/ig/twcore/StructureDefinition/Patient-twcore"
              ]
            },
            "identifier": [
              {
                "system": "http://hospital.local/patient-id",
                "value": "王-文傑-1989-02-13"
              }
            ],
            "name": [
              {
                "use": "official",
                "family": "王",
                "given": [
                  "文傑"
                ]
              }
            ],
            "gender": "male",
            "birthDate": "1989-02-13",
            "managingOrganization": {
              "reference": "Organization/0602030026"
            },
            "id": "王-文傑-1989-02-13"
          },
          "request": {
            "method": "PUT",
            "url": "/Patient/001a162e-e7a6-4317-83d3-8b8f21816550"
          }
        },
        {
          "fullUrl": "https://twcore.hapi.fhir.tw//Observation/1a6b5f42-8462-48f1-b30a-cc7eaf951b77",
          "resource": {
            "resourceType": "Observation",
            "meta": {
              "profile": [
                "https://twcore.mohw.gov.tw/ig/twcore/StructureDefinition/Observation-vitalSigns-twcore"
              ]
            },
            "status": "final",
            "category": [
              {
                "coding": [
                  {
                    "system": "http://terminology.hl7.org/CodeSystem/observation-category",
                    "code": "vital-signs",
                    "display": "Vital Signs"
                  }
                ]
              }
            ],
            "code": {
              "coding": [
                {
                  "system": "http://loinc.org",
                  "code": "85353-1",
                  "display": "Vital signs, weight, height, head circumference, oxygen saturation and BMI panel"
                }
              ],
              "text": "Vital Signs Panel"
            },
            "subject": {
              "reference": "Patient/王-文傑-1989-02-13"
            },
            "component": [
              {
                "code": {
                  "coding": [
                    {
                      "system": "http://loinc.org",
                      "code": "8302-2",
                      "display": "Body height"
                    }
                  ],
                  "text": "Body Height"
                },
                "valueQuantity": {
                  "value": 170.7,
                  "unit": "cm",
                  "system": "http://unitsofmeasure.org",
                  "code": "cm"
                }
              },
              {
                "code": {
                  "coding": [
                    {
                      "system": "http://loinc.org",
                      "code": "29463-7",
                      "display": "Body weight"
                    }
                  ],
                  "text": "Body Weight"
                },
                "valueQuantity": {
                  "value": 68.1,
                  "unit": "kg",
                  "system": "http://unitsofmeasure.org",
                  "code": "kg"
                }
              },
              {
                "code": {
                  "coding": [
                    {
                      "system": "http://loinc.org",
                      "code": "39156-5",
                      "display": "Body mass index (BMI)"
                    }
                  ],
                  "text": "BMI"
                },
                "valueQuantity": {
                  "value": 23.37,
                  "unit": "kg/m2",
                  "system": "http://unitsofmeasure.org",
                  "code": "kg/m2"
                }
              }
            ],
            "id": "1a6b5f42-8462-48f1-b30a-cc7eaf951b77"
          },
          "request": {
            "method": "PUT",
            "url": "/Observation/1a6b5f42-8462-48f1-b30a-cc7eaf951b77"
          }
        },
        {
          "fullUrl": "https://twcore.hapi.fhir.tw//Patient/f17174a3-ef5a-4e90-8c79-99e86ee2fe5d",
          "resource": {
            "resourceType": "Patient",
            "meta": {
              "profile": [
                "https://twcore.mohw.gov.tw/ig/twcore/StructureDefinition/Patient-twcore"
              ]
            },
            "identifier": [
              {
                "system": "http://hospital.local/patient-id",
                "value": "周-秀美-1981-07-18"
              }
            ],
            "name": [
              {
                "use": "official",
                "family": "周",
                "given": [
                  "秀美"
                ]
              }
            ],
            "gender": "female",
            "birthDate": "1981-07-18",
            "managingOrganization": {
              "reference": "Organization/0602030026"
            },
            "id": "周-秀美-1981-07-18"
          },
          "request": {
            "method": "PUT",
            "url": "/Patient/f17174a3-ef5a-4e90-8c79-99e86ee2fe5d"
          }
        },
        {
          "fullUrl": "https://twcore.hapi.fhir.tw//Observation/b55a77ce-ae52-4d47-b172-815862be6ab5",
          "resource": {
            "resourceType": "Observation",
            "meta": {
              "profile": [
                "https://twcore.mohw.gov.tw/ig/twcore/StructureDefinition/Observation-vitalSigns-twcore"
              ]
            },
            "status": "final",
            "category": [
              {
                "coding": [
                  {
                    "system": "http://terminology.hl7.org/CodeSystem/observation-category",
                    "code": "vital-signs",
                    "display": "Vital Signs"
                  }
                ]
              }
            ],
            "code": {
              "coding": [
                {
                  "system": "http://loinc.org",
                  "code": "85353-1",
                  "display": "Vital signs, weight, height, head circumference, oxygen saturation and BMI panel"
                }
              ],
              "text": "Vital Signs Panel"
            },
            "subject": {
              "reference": "Patient/周-秀美-1981-07-18"
            },
            "component": [
              {
                "code": {
                  "coding": [
                    {
                      "system": "http://loinc.org",
                      "code": "8302-2",
                      "display": "Body height"
                    }
                  ],
                  "text": "Body Height"
                },
                "valueQuantity": {
                  "value": 163.1,
                  "unit": "cm",
                  "system": "http://unitsofmeasure.org",
                  "code": "cm"
                }
              },
              {
                "code": {
                  "coding": [
                    {
                      "system": "http://loinc.org",
                      "code": "29463-7",
                      "display": "Body weight"
                    }
                  ],
                  "text": "Body Weight"
                },
                "valueQuantity": {
                  "value": 45.2,
                  "unit": "kg",
                  "system": "http://unitsofmeasure.org",
                  "code": "kg"
                }
              },
              {
                "code": {
                  "coding": [
                    {
                      "system": "http://loinc.org",
                      "code": "39156-5",
                      "display": "Body mass index (BMI)"
                    }
                  ],
                  "text": "BMI"
                },
                "valueQuantity": {
                  "value": 16.99,
                  "unit": "kg/m2",
                  "system": "http://unitsofmeasure.org",
                  "code": "kg/m2"
                }
              }
            ],
            "id": "b55a77ce-ae52-4d47-b172-815862be6ab5"
          },
          "request": {
            "method": "PUT",
            "url": "/Observation/b55a77ce-ae52-4d47-b172-815862be6ab5"
          }
        },
        {
          "fullUrl": "https://twcore.hapi.fhir.tw//Patient/37713d93-0d62-4ace-a30e-138c1025613e",
          "resource": {
            "resourceType": "Patient",
            "meta": {
              "profile": [
                "https://twcore.mohw.gov.tw/ig/twcore/StructureDefinition/Patient-twcore"
              ]
            },
            "identifier": [
              {
                "system": "http://hospital.local/patient-id",
                "value": "楊-俊明-2025-04-09"
              }
            ],
            "name": [
              {
                "use": "official",
                "family": "楊",
                "given": [
                  "俊明"
                ]
              }
            ],
            "gender": "male",
            "birthDate": "2025-04-09",
            "managingOrganization": {
              "reference": "Organization/0602030026"
            },
            "id": "楊-俊明-2025-04-09"
          },
          "request": {
            "method": "PUT",
            "url": "/Patient/37713d93-0d62-4ace-a30e-138c1025613e"
          }
        },
        {
          "fullUrl": "https://twcore.hapi.fhir.tw//Observation/81fe70e1-6acf-4d03-8503-316437f5e34f",
          "resource": {
            "resourceType": "Observation",
            "meta": {
              "profile": [
                "https://twcore.mohw.gov.tw/ig/twcore/StructureDefinition/Observation-vitalSigns-twcore"
              ]
            },
            "status": "final",
            "category": [
              {
                "coding": [
                  {
                    "system": "http://terminology.hl7.org/CodeSystem/observation-category",
                    "code": "vital-signs",
                    "display": "Vital Signs"
                  }
                ]
              }
            ],
            "code": {
              "coding": [
                {
                  "system": "http://loinc.org",
                  "code": "85353-1",
                  "display": "Vital signs, weight, height, head circumference, oxygen saturation and BMI panel"
                }
              ],
              "text": "Vital Signs Panel"
            },
            "subject": {
              "reference": "Patient/楊-俊明-2025-04-09"
            },
            "component": [
              {
                "code": {
                  "coding": [
                    {
                      "system": "http://loinc.org",
                      "code": "8302-2",
                      "display": "Body height"
                    }
                  ],
                  "text": "Body Height"
                },
                "valueQuantity": {
                  "value": 165.6,
                  "unit": "cm",
                  "system": "http://unitsofmeasure.org",
                  "code": "cm"
                }
              },
              {
                "code": {
                  "coding": [
                    {
                      "system": "http://loinc.org",
                      "code": "29463-7",
                      "display": "Body weight"
                    }
                  ],
                  "text": "Body Weight"
                },
                "valueQuantity": {
                  "value": 71.3,
                  "unit": "kg",
                  "system": "http://unitsofmeasure.org",
                  "code": "kg"
                }
              },
              {
                "code": {
                  "coding": [
                    {
                      "system": "http://loinc.org",
                      "code": "39156-5",
                      "display": "Body mass index (BMI)"
                    }
                  ],
                  "text": "BMI"
                },
                "valueQuantity": {
                  "value": 26,
                  "unit": "kg/m2",
                  "system": "http://unitsofmeasure.org",
                  "code": "kg/m2"
                }
              }
            ],
            "id": "81fe70e1-6acf-4d03-8503-316437f5e34f"
          },
          "request": {
            "method": "PUT",
            "url": "/Observation/81fe70e1-6acf-4d03-8503-316437f5e34f"
          }
        },
        {
          "fullUrl": "https://twcore.hapi.fhir.tw//Patient/0e3f1cd2-a1ee-40e1-b8d7-1b0ad40bd888",
          "resource": {
            "resourceType": "Patient",
            "meta": {
              "profile": [
                "https://twcore.mohw.gov.tw/ig/twcore/StructureDefinition/Patient-twcore"
              ]
            },
            "identifier": [
              {
                "system": "http://hospital.local/patient-id",
                "value": "蘇-淑玲-1993-04-24"
              }
            ],
            "name": [
              {
                "use": "official",
                "family": "蘇",
                "given": [
                  "淑玲"
                ]
              }
            ],
            "gender": "female",
            "birthDate": "1993-04-24",
            "managingOrganization": {
              "reference": "Organization/0602030026"
            },
            "id": "蘇-淑玲-1993-04-24"
          },
          "request": {
            "method": "PUT",
            "url": "/Patient/0e3f1cd2-a1ee-40e1-b8d7-1b0ad40bd888"
          }
        },
        {
          "fullUrl": "https://twcore.hapi.fhir.tw//Observation/dba9ebe6-662e-4908-b6fa-0c5155eb1aef",
          "resource": {
            "resourceType": "Observation",
            "meta": {
              "profile": [
                "https://twcore.mohw.gov.tw/ig/twcore/StructureDefinition/Observation-vitalSigns-twcore"
              ]
            },
            "status": "final",
            "category": [
              {
                "coding": [
                  {
                    "system": "http://terminology.hl7.org/CodeSystem/observation-category",
                    "code": "vital-signs",
                    "display": "Vital Signs"
                  }
                ]
              }
            ],
            "code": {
              "coding": [
                {
                  "system": "http://loinc.org",
                  "code": "85353-1",
                  "display": "Vital signs, weight, height, head circumference, oxygen saturation and BMI panel"
                }
              ],
              "text": "Vital Signs Panel"
            },
            "subject": {
              "reference": "Patient/蘇-淑玲-1993-04-24"
            },
            "component": [
              {
                "code": {
                  "coding": [
                    {
                      "system": "http://loinc.org",
                      "code": "8302-2",
                      "display": "Body height"
                    }
                  ],
                  "text": "Body Height"
                },
                "valueQuantity": {
                  "value": 165.9,
                  "unit": "cm",
                  "system": "http://unitsofmeasure.org",
                  "code": "cm"
                }
              },
              {
                "code": {
                  "coding": [
                    {
                      "system": "http://loinc.org",
                      "code": "29463-7",
                      "display": "Body weight"
                    }
                  ],
                  "text": "Body Weight"
                },
                "valueQuantity": {
                  "value": 58.2,
                  "unit": "kg",
                  "system": "http://unitsofmeasure.org",
                  "code": "kg"
                }
              },
              {
                "code": {
                  "coding": [
                    {
                      "system": "http://loinc.org",
                      "code": "39156-5",
                      "display": "Body mass index (BMI)"
                    }
                  ],
                  "text": "BMI"
                },
                "valueQuantity": {
                  "value": 21.15,
                  "unit": "kg/m2",
                  "system": "http://unitsofmeasure.org",
                  "code": "kg/m2"
                }
              }
            ],
            "id": "dba9ebe6-662e-4908-b6fa-0c5155eb1aef"
          },
          "request": {
            "method": "PUT",
            "url": "/Observation/dba9ebe6-662e-4908-b6fa-0c5155eb1aef"
          }
        },
        {
          "fullUrl": "https://twcore.hapi.fhir.tw//Patient/60fb8c45-9922-4f51-920a-9982cbaf3db8",
          "resource": {
            "resourceType": "Patient",
            "meta": {
              "profile": [
                "https://twcore.mohw.gov.tw/ig/twcore/StructureDefinition/Patient-twcore"
              ]
            },
            "identifier": [
              {
                "system": "http://hospital.local/patient-id",
                "value": "林-秀美-1974-08-06"
              }
            ],
            "name": [
              {
                "use": "official",
                "family": "林",
                "given": [
                  "秀美"
                ]
              }
            ],
            "gender": "female",
            "birthDate": "1974-08-06",
            "managingOrganization": {
              "reference": "Organization/0602030026"
            },
            "id": "林-秀美-1974-08-06"
          },
          "request": {
            "method": "PUT",
            "url": "/Patient/60fb8c45-9922-4f51-920a-9982cbaf3db8"
          }
        },
        {
          "fullUrl": "https://twcore.hapi.fhir.tw//Observation/2ea5763d-557d-4c10-a7b6-e8ecaa491583",
          "resource": {
            "resourceType": "Observation",
            "meta": {
              "profile": [
                "https://twcore.mohw.gov.tw/ig/twcore/StructureDefinition/Observation-vitalSigns-twcore"
              ]
            },
            "status": "final",
            "category": [
              {
                "coding": [
                  {
                    "system": "http://terminology.hl7.org/CodeSystem/observation-category",
                    "code": "vital-signs",
                    "display": "Vital Signs"
                  }
                ]
              }
            ],
            "code": {
              "coding": [
                {
                  "system": "http://loinc.org",
                  "code": "85353-1",
                  "display": "Vital signs, weight, height, head circumference, oxygen saturation and BMI panel"
                }
              ],
              "text": "Vital Signs Panel"
            },
            "subject": {
              "reference": "Patient/林-秀美-1974-08-06"
            },
            "component": [
              {
                "code": {
                  "coding": [
                    {
                      "system": "http://loinc.org",
                      "code": "8302-2",
                      "display": "Body height"
                    }
                  ],
                  "text": "Body Height"
                },
                "valueQuantity": {
                  "value": 156.3,
                  "unit": "cm",
                  "system": "http://unitsofmeasure.org",
                  "code": "cm"
                }
              },
              {
                "code": {
                  "coding": [
                    {
                      "system": "http://loinc.org",
                      "code": "29463-7",
                      "display": "Body weight"
                    }
                  ],
                  "text": "Body Weight"
                },
                "valueQuantity": {
                  "value": 66.5,
                  "unit": "kg",
                  "system": "http://unitsofmeasure.org",
                  "code": "kg"
                }
              },
              {
                "code": {
                  "coding": [
                    {
                      "system": "http://loinc.org",
                      "code": "39156-5",
                      "display": "Body mass index (BMI)"
                    }
                  ],
                  "text": "BMI"
                },
                "valueQuantity": {
                  "value": 27.22,
                  "unit": "kg/m2",
                  "system": "http://unitsofmeasure.org",
                  "code": "kg/m2"
                }
              }
            ],
            "id": "2ea5763d-557d-4c10-a7b6-e8ecaa491583"
          },
          "request": {
            "method": "PUT",
            "url": "/Observation/2ea5763d-557d-4c10-a7b6-e8ecaa491583"
          }
        },
        {
          "fullUrl": "https://twcore.hapi.fhir.tw//Patient/121ec5cd-4ee4-49d5-8ceb-9e8edf80860f",
          "resource": {
            "resourceType": "Patient",
            "meta": {
              "profile": [
                "https://twcore.mohw.gov.tw/ig/twcore/StructureDefinition/Patient-twcore"
              ]
            },
            "identifier": [
              {
                "system": "http://hospital.local/patient-id",
                "value": "李-秀枝-1924-05-25"
              }
            ],
            "name": [
              {
                "use": "official",
                "family": "李",
                "given": [
                  "秀枝"
                ]
              }
            ],
            "gender": "female",
            "birthDate": "1924-05-25",
            "managingOrganization": {
              "reference": "Organization/0602030026"
            },
            "id": "李-秀枝-1924-05-25"
          },
          "request": {
            "method": "PUT",
            "url": "/Patient/121ec5cd-4ee4-49d5-8ceb-9e8edf80860f"
          }
        },
        {
          "fullUrl": "https://twcore.hapi.fhir.tw//Observation/e60c9068-e10a-43fe-bc60-09d3255f3be5",
          "resource": {
            "resourceType": "Observation",
            "meta": {
              "profile": [
                "https://twcore.mohw.gov.tw/ig/twcore/StructureDefinition/Observation-vitalSigns-twcore"
              ]
            },
            "status": "final",
            "category": [
              {
                "coding": [
                  {
                    "system": "http://terminology.hl7.org/CodeSystem/observation-category",
                    "code": "vital-signs",
                    "display": "Vital Signs"
                  }
                ]
              }
            ],
            "code": {
              "coding": [
                {
                  "system": "http://loinc.org",
                  "code": "85353-1",
                  "display": "Vital signs, weight, height, head circumference, oxygen saturation and BMI panel"
                }
              ],
              "text": "Vital Signs Panel"
            },
            "subject": {
              "reference": "Patient/李-秀枝-1924-05-25"
            },
            "component": [
              {
                "code": {
                  "coding": [
                    {
                      "system": "http://loinc.org",
                      "code": "8302-2",
                      "display": "Body height"
                    }
                  ],
                  "text": "Body Height"
                },
                "valueQuantity": {
                  "value": 162.3,
                  "unit": "cm",
                  "system": "http://unitsofmeasure.org",
                  "code": "cm"
                }
              },
              {
                "code": {
                  "coding": [
                    {
                      "system": "http://loinc.org",
                      "code": "29463-7",
                      "display": "Body weight"
                    }
                  ],
                  "text": "Body Weight"
                },
                "valueQuantity": {
                  "value": 40,
                  "unit": "kg",
                  "system": "http://unitsofmeasure.org",
                  "code": "kg"
                }
              },
              {
                "code": {
                  "coding": [
                    {
                      "system": "http://loinc.org",
                      "code": "39156-5",
                      "display": "Body mass index (BMI)"
                    }
                  ],
                  "text": "BMI"
                },
                "valueQuantity": {
                  "value": 15.19,
                  "unit": "kg/m2",
                  "system": "http://unitsofmeasure.org",
                  "code": "kg/m2"
                }
              }
            ],
            "id": "e60c9068-e10a-43fe-bc60-09d3255f3be5"
          },
          "request": {
            "method": "PUT",
            "url": "/Observation/e60c9068-e10a-43fe-bc60-09d3255f3be5"
          }
        },
        {
          "fullUrl": "https://twcore.hapi.fhir.tw//Patient/2c40b8d3-5fae-44d7-b11d-98cb0fd8d6f8",
          "resource": {
            "resourceType": "Patient",
            "meta": {
              "profile": [
                "https://twcore.mohw.gov.tw/ig/twcore/StructureDefinition/Patient-twcore"
              ]
            },
            "identifier": [
              {
                "system": "http://hospital.local/patient-id",
                "value": "吳-雅慧-1921-12-03"
              }
            ],
            "name": [
              {
                "use": "official",
                "family": "吳",
                "given": [
                  "雅慧"
                ]
              }
            ],
            "gender": "female",
            "birthDate": "1921-12-03",
            "managingOrganization": {
              "reference": "Organization/0602030026"
            },
            "id": "吳-雅慧-1921-12-03"
          },
          "request": {
            "method": "PUT",
            "url": "/Patient/2c40b8d3-5fae-44d7-b11d-98cb0fd8d6f8"
          }
        },
        {
          "fullUrl": "https://twcore.hapi.fhir.tw//Observation/23d164b5-39d7-435f-b4a0-cc04a5ad842c",
          "resource": {
            "resourceType": "Observation",
            "meta": {
              "profile": [
                "https://twcore.mohw.gov.tw/ig/twcore/StructureDefinition/Observation-vitalSigns-twcore"
              ]
            },
            "status": "final",
            "category": [
              {
                "coding": [
                  {
                    "system": "http://terminology.hl7.org/CodeSystem/observation-category",
                    "code": "vital-signs",
                    "display": "Vital Signs"
                  }
                ]
              }
            ],
            "code": {
              "coding": [
                {
                  "system": "http://loinc.org",
                  "code": "85353-1",
                  "display": "Vital signs, weight, height, head circumference, oxygen saturation and BMI panel"
                }
              ],
              "text": "Vital Signs Panel"
            },
            "subject": {
              "reference": "Patient/吳-雅慧-1921-12-03"
            },
            "component": [
              {
                "code": {
                  "coding": [
                    {
                      "system": "http://loinc.org",
                      "code": "8302-2",
                      "display": "Body height"
                    }
                  ],
                  "text": "Body Height"
                },
                "valueQuantity": {
                  "value": 166.1,
                  "unit": "cm",
                  "system": "http://unitsofmeasure.org",
                  "code": "cm"
                }
              },
              {
                "code": {
                  "coding": [
                    {
                      "system": "http://loinc.org",
                      "code": "29463-7",
                      "display": "Body weight"
                    }
                  ],
                  "text": "Body Weight"
                },
                "valueQuantity": {
                  "value": 58.3,
                  "unit": "kg",
                  "system": "http://unitsofmeasure.org",
                  "code": "kg"
                }
              },
              {
                "code": {
                  "coding": [
                    {
                      "system": "http://loinc.org",
                      "code": "39156-5",
                      "display": "Body mass index (BMI)"
                    }
                  ],
                  "text": "BMI"
                },
                "valueQuantity": {
                  "value": 21.13,
                  "unit": "kg/m2",
                  "system": "http://unitsofmeasure.org",
                  "code": "kg/m2"
                }
              }
            ],
            "id": "23d164b5-39d7-435f-b4a0-cc04a5ad842c"
          },
          "request": {
            "method": "PUT",
            "url": "/Observation/23d164b5-39d7-435f-b4a0-cc04a5ad842c"
          }
        },
        {
          "fullUrl": "https://twcore.hapi.fhir.tw//Patient/1499c6bf-f28c-4381-a012-2a2e706df589",
          "resource": {
            "resourceType": "Patient",
            "meta": {
              "profile": [
                "https://twcore.mohw.gov.tw/ig/twcore/StructureDefinition/Patient-twcore"
              ]
            },
            "identifier": [
              {
                "system": "http://hospital.local/patient-id",
                "value": "章-建志-2019-01-04"
              }
            ],
            "name": [
              {
                "use": "official",
                "family": "章",
                "given": [
                  "建志"
                ]
              }
            ],
            "gender": "male",
            "birthDate": "2019-01-04",
            "managingOrganization": {
              "reference": "Organization/0602030026"
            },
            "id": "章-建志-2019-01-04"
          },
          "request": {
            "method": "PUT",
            "url": "/Patient/1499c6bf-f28c-4381-a012-2a2e706df589"
          }
        },
        {
          "fullUrl": "https://twcore.hapi.fhir.tw//Observation/a4a5c54e-dd80-41b8-aac4-8ca04528c2fc",
          "resource": {
            "resourceType": "Observation",
            "meta": {
              "profile": [
                "https://twcore.mohw.gov.tw/ig/twcore/StructureDefinition/Observation-vitalSigns-twcore"
              ]
            },
            "status": "final",
            "category": [
              {
                "coding": [
                  {
                    "system": "http://terminology.hl7.org/CodeSystem/observation-category",
                    "code": "vital-signs",
                    "display": "Vital Signs"
                  }
                ]
              }
            ],
            "code": {
              "coding": [
                {
                  "system": "http://loinc.org",
                  "code": "85353-1",
                  "display": "Vital signs, weight, height, head circumference, oxygen saturation and BMI panel"
                }
              ],
              "text": "Vital Signs Panel"
            },
            "subject": {
              "reference": "Patient/章-建志-2019-01-04"
            },
            "component": [
              {
                "code": {
                  "coding": [
                    {
                      "system": "http://loinc.org",
                      "code": "8302-2",
                      "display": "Body height"
                    }
                  ],
                  "text": "Body Height"
                },
                "valueQuantity": {
                  "value": 189.1,
                  "unit": "cm",
                  "system": "http://unitsofmeasure.org",
                  "code": "cm"
                }
              },
              {
                "code": {
                  "coding": [
                    {
                      "system": "http://loinc.org",
                      "code": "29463-7",
                      "display": "Body weight"
                    }
                  ],
                  "text": "Body Weight"
                },
                "valueQuantity": {
                  "value": 73.7,
                  "unit": "kg",
                  "system": "http://unitsofmeasure.org",
                  "code": "kg"
                }
              },
              {
                "code": {
                  "coding": [
                    {
                      "system": "http://loinc.org",
                      "code": "39156-5",
                      "display": "Body mass index (BMI)"
                    }
                  ],
                  "text": "BMI"
                },
                "valueQuantity": {
                  "value": 20.61,
                  "unit": "kg/m2",
                  "system": "http://unitsofmeasure.org",
                  "code": "kg/m2"
                }
              }
            ],
            "id": "a4a5c54e-dd80-41b8-aac4-8ca04528c2fc"
          },
          "request": {
            "method": "PUT",
            "url": "/Observation/a4a5c54e-dd80-41b8-aac4-8ca04528c2fc"
          }
        },
        {
          "fullUrl": "https://twcore.hapi.fhir.tw//Patient/04228030-12ef-49a0-8c12-7e6b0b3a9143",
          "resource": {
            "resourceType": "Patient",
            "meta": {
              "profile": [
                "https://twcore.mohw.gov.tw/ig/twcore/StructureDefinition/Patient-twcore"
              ]
            },
            "identifier": [
              {
                "system": "http://hospital.local/patient-id",
                "value": "王-志雄-1959-11-30"
              }
            ],
            "name": [
              {
                "use": "official",
                "family": "王",
                "given": [
                  "志雄"
                ]
              }
            ],
            "gender": "male",
            "birthDate": "1959-11-30",
            "managingOrganization": {
              "reference": "Organization/0602030026"
            },
            "id": "王-志雄-1959-11-30"
          },
          "request": {
            "method": "PUT",
            "url": "/Patient/04228030-12ef-49a0-8c12-7e6b0b3a9143"
          }
        },
        {
          "fullUrl": "https://twcore.hapi.fhir.tw//Observation/1014a4bb-a5a4-42b2-b50b-46424b2cd60d",
          "resource": {
            "resourceType": "Observation",
            "meta": {
              "profile": [
                "https://twcore.mohw.gov.tw/ig/twcore/StructureDefinition/Observation-vitalSigns-twcore"
              ]
            },
            "status": "final",
            "category": [
              {
                "coding": [
                  {
                    "system": "http://terminology.hl7.org/CodeSystem/observation-category",
                    "code": "vital-signs",
                    "display": "Vital Signs"
                  }
                ]
              }
            ],
            "code": {
              "coding": [
                {
                  "system": "http://loinc.org",
                  "code": "85353-1",
                  "display": "Vital signs, weight, height, head circumference, oxygen saturation and BMI panel"
                }
              ],
              "text": "Vital Signs Panel"
            },
            "subject": {
              "reference": "Patient/王-志雄-1959-11-30"
            },
            "component": [
              {
                "code": {
                  "coding": [
                    {
                      "system": "http://loinc.org",
                      "code": "8302-2",
                      "display": "Body height"
                    }
                  ],
                  "text": "Body Height"
                },
                "valueQuantity": {
                  "value": 165.2,
                  "unit": "cm",
                  "system": "http://unitsofmeasure.org",
                  "code": "cm"
                }
              },
              {
                "code": {
                  "coding": [
                    {
                      "system": "http://loinc.org",
                      "code": "29463-7",
                      "display": "Body weight"
                    }
                  ],
                  "text": "Body Weight"
                },
                "valueQuantity": {
                  "value": 70.2,
                  "unit": "kg",
                  "system": "http://unitsofmeasure.org",
                  "code": "kg"
                }
              },
              {
                "code": {
                  "coding": [
                    {
                      "system": "http://loinc.org",
                      "code": "39156-5",
                      "display": "Body mass index (BMI)"
                    }
                  ],
                  "text": "BMI"
                },
                "valueQuantity": {
                  "value": 25.72,
                  "unit": "kg/m2",
                  "system": "http://unitsofmeasure.org",
                  "code": "kg/m2"
                }
              }
            ],
            "id": "1014a4bb-a5a4-42b2-b50b-46424b2cd60d"
          },
          "request": {
            "method": "PUT",
            "url": "/Observation/1014a4bb-a5a4-42b2-b50b-46424b2cd60d"
          }
        }
      ]
    }
  }
}