{
  "bundle": {
    "bundle": {
      "resourceType": "Bundle",
      "type": "transaction",
      "entry": [
        {
          "fullUrl": "https://twcore.hapi.fhir.tw//Organization/3e607cfb-0b11-4958-bfb7-9f258e387c93",
          "resource": {
            "id": "3e607cfb-0b11-4958-bfb7-9f258e387c93",
            "resourceType": "Organization",
            "identifier": [
              {
                "type": {
                  "coding": [
                    {
                      "system": "http://terminology.hl7.org/CodeSystem/v2-0203",
                      "code": "PRN"
                    }
                  ]
                },
                "system": "https://twcore.mohw.gov.tw/ig/twcore/CodeSystem/organization-identifier-tw",
                "value": "0602030026"
              }
            ],
            "active": true,
            "name": "高雄榮民總醫院"
          },
          "request": {
            "method": "PUT",
            "url": "Organization/3e607cfb-0b11-4958-bfb7-9f258e387c93"
          }
        },
        {
          "fullUrl": "https://twcore.hapi.fhir.tw//Patient/97e36f4c-d699-4678-92e7-9eda20fef255",
          "resource": {
            "resourceType": "Patient",
            "meta": {
              "profile": [
                "https://twcore.mohw.gov.tw/ig/twcore/StructureDefinition/Patient-twcore"
              ]
            },
            "identifier": [
              {
                "system": "http://hospital.local/patient-id",
                "value": "岳-世明-2018-09-29"
              }
            ],
            "name": [
              {
                "use": "official",
                "family": "岳",
                "given": [
                  "世明"
                ]
              }
            ],
            "gender": "male",
            "birthDate": "2018-09-29",
            "managingOrganization": {
              "reference": "Organization/0602030026"
            },
            "id": "岳-世明-2018-09-29"
          },
          "request": {
            "method": "PUT",
            "url": "/Patient/97e36f4c-d699-4678-92e7-9eda20fef255"
          }
        },
        {
          "fullUrl": "https://twcore.hapi.fhir.tw//Observation/4dbe9c3d-bfba-4be6-87dc-b72aa766e67e",
          "resource": {
            "resourceType": "Observation",
            "meta": {
              "profile": [
                "https://twcore.mohw.gov.tw/ig/twcore/StructureDefinition/Observation-vitalSigns-twcore"
              ]
            },
            "status": "final",
            "category": [
              {
                "coding": [
                  {
                    "system": "http://terminology.hl7.org/CodeSystem/observation-category",
                    "code": "vital-signs",
                    "display": "Vital Signs"
                  }
                ]
              }
            ],
            "code": {
              "coding": [
                {
                  "system": "http://loinc.org",
                  "code": "85353-1",
                  "display": "Vital signs, weight, height, head circumference, oxygen saturation and BMI panel"
                }
              ],
              "text": "Vital Signs Panel"
            },
            "subject": {
              "reference": "Patient/岳-世明-2018-09-29"
            },
            "component": [
              {
                "code": {
                  "coding": [
                    {
                      "system": "http://loinc.org",
                      "code": "8302-2",
                      "display": "Body height"
                    }
                  ],
                  "text": "Body Height"
                },
                "valueQuantity": {
                  "value": 171.9,
                  "unit": "cm",
                  "system": "http://unitsofmeasure.org",
                  "code": "cm"
                }
              },
              {
                "code": {
                  "coding": [
                    {
                      "system": "http://loinc.org",
                      "code": "29463-7",
                      "display": "Body weight"
                    }
                  ],
                  "text": "Body Weight"
                },
                "valueQuantity": {
                  "value": 76.9,
                  "unit": "kg",
                  "system": "http://unitsofmeasure.org",
                  "code": "kg"
                }
              },
              {
                "code": {
                  "coding": [
                    {
                      "system": "http://loinc.org",
                      "code": "39156-5",
                      "display": "Body mass index (BMI)"
                    }
                  ],
                  "text": "BMI"
                },
                "valueQuantity": {
                  "value": 26.02,
                  "unit": "kg/m2",
                  "system": "http://unitsofmeasure.org",
                  "code": "kg/m2"
                }
              }
            ],
            "id": "4dbe9c3d-bfba-4be6-87dc-b72aa766e67e"
          },
          "request": {
            "method": "PUT",
            "url": "/Observation/4dbe9c3d-bfba-4be6-87dc-b72aa766e67e"
          }
        },
        {
          "fullUrl": "https://twcore.hapi.fhir.tw//Patient/cf975f23-b5c6-4beb-b2bf-ffa324084036",
          "resource": {
            "resourceType": "Patient",
            "meta": {
              "profile": [
                "https://twcore.mohw.gov.tw/ig/twcore/StructureDefinition/Patient-twcore"
              ]
            },
            "identifier": [
              {
                "system": "http://hospital.local/patient-id",
                "value": "王-文傑-1989-02-13"
              }
            ],
            "name": [
              {
                "use": "official",
                "family": "王",
                "given": [
                  "文傑"
                ]
              }
            ],
            "gender": "male",
            "birthDate": "1989-02-13",
            "managingOrganization": {
              "reference": "Organization/0602030026"
            },
            "id": "王-文傑-1989-02-13"
          },
          "request": {
            "method": "PUT",
            "url": "/Patient/cf975f23-b5c6-4beb-b2bf-ffa324084036"
          }
        },
        {
          "fullUrl": "https://twcore.hapi.fhir.tw//Observation/3cce60d0-1ef7-4d85-b3a4-40d02d67d5be",
          "resource": {
            "resourceType": "Observation",
            "meta": {
              "profile": [
                "https://twcore.mohw.gov.tw/ig/twcore/StructureDefinition/Observation-vitalSigns-twcore"
              ]
            },
            "status": "final",
            "category": [
              {
                "coding": [
                  {
                    "system": "http://terminology.hl7.org/CodeSystem/observation-category",
                    "code": "vital-signs",
                    "display": "Vital Signs"
                  }
                ]
              }
            ],
            "code": {
              "coding": [
                {
                  "system": "http://loinc.org",
                  "code": "85353-1",
                  "display": "Vital signs, weight, height, head circumference, oxygen saturation and BMI panel"
                }
              ],
              "text": "Vital Signs Panel"
            },
            "subject": {
              "reference": "Patient/王-文傑-1989-02-13"
            },
            "component": [
              {
                "code": {
                  "coding": [
                    {
                      "system": "http://loinc.org",
                      "code": "8302-2",
                      "display": "Body height"
                    }
                  ],
                  "text": "Body Height"
                },
                "valueQuantity": {
                  "value": 170.7,
                  "unit": "cm",
                  "system": "http://unitsofmeasure.org",
                  "code": "cm"
                }
              },
              {
                "code": {
                  "coding": [
                    {
                      "system": "http://loinc.org",
                      "code": "29463-7",
                      "display": "Body weight"
                    }
                  ],
                  "text": "Body Weight"
                },
                "valueQuantity": {
                  "value": 68.1,
                  "unit": "kg",
                  "system": "http://unitsofmeasure.org",
                  "code": "kg"
                }
              },
              {
                "code": {
                  "coding": [
                    {
                      "system": "http://loinc.org",
                      "code": "39156-5",
                      "display": "Body mass index (BMI)"
                    }
                  ],
                  "text": "BMI"
                },
                "valueQuantity": {
                  "value": 23.37,
                  "unit": "kg/m2",
                  "system": "http://unitsofmeasure.org",
                  "code": "kg/m2"
                }
              }
            ],
            "id": "3cce60d0-1ef7-4d85-b3a4-40d02d67d5be"
          },
          "request": {
            "method": "PUT",
            "url": "/Observation/3cce60d0-1ef7-4d85-b3a4-40d02d67d5be"
          }
        },
        {
          "fullUrl": "https://twcore.hapi.fhir.tw//Patient/4468740a-d575-4e6c-ab19-364ac23422a2",
          "resource": {
            "resourceType": "Patient",
            "meta": {
              "profile": [
                "https://twcore.mohw.gov.tw/ig/twcore/StructureDefinition/Patient-twcore"
              ]
            },
            "identifier": [
              {
                "system": "http://hospital.local/patient-id",
                "value": "周-秀美-1981-07-18"
              }
            ],
            "name": [
              {
                "use": "official",
                "family": "周",
                "given": [
                  "秀美"
                ]
              }
            ],
            "gender": "female",
            "birthDate": "1981-07-18",
            "managingOrganization": {
              "reference": "Organization/0602030026"
            },
            "id": "周-秀美-1981-07-18"
          },
          "request": {
            "method": "PUT",
            "url": "/Patient/4468740a-d575-4e6c-ab19-364ac23422a2"
          }
        },
        {
          "fullUrl": "https://twcore.hapi.fhir.tw//Observation/3473c1ab-59c5-4586-8794-6adcc5f97799",
          "resource": {
            "resourceType": "Observation",
            "meta": {
              "profile": [
                "https://twcore.mohw.gov.tw/ig/twcore/StructureDefinition/Observation-vitalSigns-twcore"
              ]
            },
            "status": "final",
            "category": [
              {
                "coding": [
                  {
                    "system": "http://terminology.hl7.org/CodeSystem/observation-category",
                    "code": "vital-signs",
                    "display": "Vital Signs"
                  }
                ]
              }
            ],
            "code": {
              "coding": [
                {
                  "system": "http://loinc.org",
                  "code": "85353-1",
                  "display": "Vital signs, weight, height, head circumference, oxygen saturation and BMI panel"
                }
              ],
              "text": "Vital Signs Panel"
            },
            "subject": {
              "reference": "Patient/周-秀美-1981-07-18"
            },
            "component": [
              {
                "code": {
                  "coding": [
                    {
                      "system": "http://loinc.org",
                      "code": "8302-2",
                      "display": "Body height"
                    }
                  ],
                  "text": "Body Height"
                },
                "valueQuantity": {
                  "value": 163.1,
                  "unit": "cm",
                  "system": "http://unitsofmeasure.org",
                  "code": "cm"
                }
              },
              {
                "code": {
                  "coding": [
                    {
                      "system": "http://loinc.org",
                      "code": "29463-7",
                      "display": "Body weight"
                    }
                  ],
                  "text": "Body Weight"
                },
                "valueQuantity": {
                  "value": 45.2,
                  "unit": "kg",
                  "system": "http://unitsofmeasure.org",
                  "code": "kg"
                }
              },
              {
                "code": {
                  "coding": [
                    {
                      "system": "http://loinc.org",
                      "code": "39156-5",
                      "display": "Body mass index (BMI)"
                    }
                  ],
                  "text": "BMI"
                },
                "valueQuantity": {
                  "value": 16.99,
                  "unit": "kg/m2",
                  "system": "http://unitsofmeasure.org",
                  "code": "kg/m2"
                }
              }
            ],
            "id": "3473c1ab-59c5-4586-8794-6adcc5f97799"
          },
          "request": {
            "method": "PUT",
            "url": "/Observation/3473c1ab-59c5-4586-8794-6adcc5f97799"
          }
        },
        {
          "fullUrl": "https://twcore.hapi.fhir.tw//Patient/360ede80-98c8-4f0c-847f-197c49a5ee1c",
          "resource": {
            "resourceType": "Patient",
            "meta": {
              "profile": [
                "https://twcore.mohw.gov.tw/ig/twcore/StructureDefinition/Patient-twcore"
              ]
            },
            "identifier": [
              {
                "system": "http://hospital.local/patient-id",
                "value": "楊-俊明-2025-04-09"
              }
            ],
            "name": [
              {
                "use": "official",
                "family": "楊",
                "given": [
                  "俊明"
                ]
              }
            ],
            "gender": "male",
            "birthDate": "2025-04-09",
            "managingOrganization": {
              "reference": "Organization/0602030026"
            },
            "id": "楊-俊明-2025-04-09"
          },
          "request": {
            "method": "PUT",
            "url": "/Patient/360ede80-98c8-4f0c-847f-197c49a5ee1c"
          }
        },
        {
          "fullUrl": "https://twcore.hapi.fhir.tw//Observation/e2486e30-a323-4baf-8d43-efdc170dce43",
          "resource": {
            "resourceType": "Observation",
            "meta": {
              "profile": [
                "https://twcore.mohw.gov.tw/ig/twcore/StructureDefinition/Observation-vitalSigns-twcore"
              ]
            },
            "status": "final",
            "category": [
              {
                "coding": [
                  {
                    "system": "http://terminology.hl7.org/CodeSystem/observation-category",
                    "code": "vital-signs",
                    "display": "Vital Signs"
                  }
                ]
              }
            ],
            "code": {
              "coding": [
                {
                  "system": "http://loinc.org",
                  "code": "85353-1",
                  "display": "Vital signs, weight, height, head circumference, oxygen saturation and BMI panel"
                }
              ],
              "text": "Vital Signs Panel"
            },
            "subject": {
              "reference": "Patient/楊-俊明-2025-04-09"
            },
            "component": [
              {
                "code": {
                  "coding": [
                    {
                      "system": "http://loinc.org",
                      "code": "8302-2",
                      "display": "Body height"
                    }
                  ],
                  "text": "Body Height"
                },
                "valueQuantity": {
                  "value": 165.6,
                  "unit": "cm",
                  "system": "http://unitsofmeasure.org",
                  "code": "cm"
                }
              },
              {
                "code": {
                  "coding": [
                    {
                      "system": "http://loinc.org",
                      "code": "29463-7",
                      "display": "Body weight"
                    }
                  ],
                  "text": "Body Weight"
                },
                "valueQuantity": {
                  "value": 71.3,
                  "unit": "kg",
                  "system": "http://unitsofmeasure.org",
                  "code": "kg"
                }
              },
              {
                "code": {
                  "coding": [
                    {
                      "system": "http://loinc.org",
                      "code": "39156-5",
                      "display": "Body mass index (BMI)"
                    }
                  ],
                  "text": "BMI"
                },
                "valueQuantity": {
                  "value": 26,
                  "unit": "kg/m2",
                  "system": "http://unitsofmeasure.org",
                  "code": "kg/m2"
                }
              }
            ],
            "id": "e2486e30-a323-4baf-8d43-efdc170dce43"
          },
          "request": {
            "method": "PUT",
            "url": "/Observation/e2486e30-a323-4baf-8d43-efdc170dce43"
          }
        },
        {
          "fullUrl": "https://twcore.hapi.fhir.tw//Patient/aea7d9aa-d484-4e8d-a79a-b3e5fac2694c",
          "resource": {
            "resourceType": "Patient",
            "meta": {
              "profile": [
                "https://twcore.mohw.gov.tw/ig/twcore/StructureDefinition/Patient-twcore"
              ]
            },
            "identifier": [
              {
                "system": "http://hospital.local/patient-id",
                "value": "蘇-淑玲-1993-04-24"
              }
            ],
            "name": [
              {
                "use": "official",
                "family": "蘇",
                "given": [
                  "淑玲"
                ]
              }
            ],
            "gender": "female",
            "birthDate": "1993-04-24",
            "managingOrganization": {
              "reference": "Organization/0602030026"
            },
            "id": "蘇-淑玲-1993-04-24"
          },
          "request": {
            "method": "PUT",
            "url": "/Patient/aea7d9aa-d484-4e8d-a79a-b3e5fac2694c"
          }
        },
        {
          "fullUrl": "https://twcore.hapi.fhir.tw//Observation/4d874ea6-09e9-48fe-ae8f-2f7cb7d8fc7c",
          "resource": {
            "resourceType": "Observation",
            "meta": {
              "profile": [
                "https://twcore.mohw.gov.tw/ig/twcore/StructureDefinition/Observation-vitalSigns-twcore"
              ]
            },
            "status": "final",
            "category": [
              {
                "coding": [
                  {
                    "system": "http://terminology.hl7.org/CodeSystem/observation-category",
                    "code": "vital-signs",
                    "display": "Vital Signs"
                  }
                ]
              }
            ],
            "code": {
              "coding": [
                {
                  "system": "http://loinc.org",
                  "code": "85353-1",
                  "display": "Vital signs, weight, height, head circumference, oxygen saturation and BMI panel"
                }
              ],
              "text": "Vital Signs Panel"
            },
            "subject": {
              "reference": "Patient/蘇-淑玲-1993-04-24"
            },
            "component": [
              {
                "code": {
                  "coding": [
                    {
                      "system": "http://loinc.org",
                      "code": "8302-2",
                      "display": "Body height"
                    }
                  ],
                  "text": "Body Height"
                },
                "valueQuantity": {
                  "value": 165.9,
                  "unit": "cm",
                  "system": "http://unitsofmeasure.org",
                  "code": "cm"
                }
              },
              {
                "code": {
                  "coding": [
                    {
                      "system": "http://loinc.org",
                      "code": "29463-7",
                      "display": "Body weight"
                    }
                  ],
                  "text": "Body Weight"
                },
                "valueQuantity": {
                  "value": 58.2,
                  "unit": "kg",
                  "system": "http://unitsofmeasure.org",
                  "code": "kg"
                }
              },
              {
                "code": {
                  "coding": [
                    {
                      "system": "http://loinc.org",
                      "code": "39156-5",
                      "display": "Body mass index (BMI)"
                    }
                  ],
                  "text": "BMI"
                },
                "valueQuantity": {
                  "value": 21.15,
                  "unit": "kg/m2",
                  "system": "http://unitsofmeasure.org",
                  "code": "kg/m2"
                }
              }
            ],
            "id": "4d874ea6-09e9-48fe-ae8f-2f7cb7d8fc7c"
          },
          "request": {
            "method": "PUT",
            "url": "/Observation/4d874ea6-09e9-48fe-ae8f-2f7cb7d8fc7c"
          }
        },
        {
          "fullUrl": "https://twcore.hapi.fhir.tw//Patient/529eeef2-31b1-4c7f-9f27-46afef9870df",
          "resource": {
            "resourceType": "Patient",
            "meta": {
              "profile": [
                "https://twcore.mohw.gov.tw/ig/twcore/StructureDefinition/Patient-twcore"
              ]
            },
            "identifier": [
              {
                "system": "http://hospital.local/patient-id",
                "value": "林-秀美-1974-08-06"
              }
            ],
            "name": [
              {
                "use": "official",
                "family": "林",
                "given": [
                  "秀美"
                ]
              }
            ],
            "gender": "female",
            "birthDate": "1974-08-06",
            "managingOrganization": {
              "reference": "Organization/0602030026"
            },
            "id": "林-秀美-1974-08-06"
          },
          "request": {
            "method": "PUT",
            "url": "/Patient/529eeef2-31b1-4c7f-9f27-46afef9870df"
          }
        },
        {
          "fullUrl": "https://twcore.hapi.fhir.tw//Observation/457f442c-5ca8-4fdb-af5d-335e835aab5c",
          "resource": {
            "resourceType": "Observation",
            "meta": {
              "profile": [
                "https://twcore.mohw.gov.tw/ig/twcore/StructureDefinition/Observation-vitalSigns-twcore"
              ]
            },
            "status": "final",
            "category": [
              {
                "coding": [
                  {
                    "system": "http://terminology.hl7.org/CodeSystem/observation-category",
                    "code": "vital-signs",
                    "display": "Vital Signs"
                  }
                ]
              }
            ],
            "code": {
              "coding": [
                {
                  "system": "http://loinc.org",
                  "code": "85353-1",
                  "display": "Vital signs, weight, height, head circumference, oxygen saturation and BMI panel"
                }
              ],
              "text": "Vital Signs Panel"
            },
            "subject": {
              "reference": "Patient/林-秀美-1974-08-06"
            },
            "component": [
              {
                "code": {
                  "coding": [
                    {
                      "system": "http://loinc.org",
                      "code": "8302-2",
                      "display": "Body height"
                    }
                  ],
                  "text": "Body Height"
                },
                "valueQuantity": {
                  "value": 156.3,
                  "unit": "cm",
                  "system": "http://unitsofmeasure.org",
                  "code": "cm"
                }
              },
              {
                "code": {
                  "coding": [
                    {
                      "system": "http://loinc.org",
                      "code": "29463-7",
                      "display": "Body weight"
                    }
                  ],
                  "text": "Body Weight"
                },
                "valueQuantity": {
                  "value": 66.5,
                  "unit": "kg",
                  "system": "http://unitsofmeasure.org",
                  "code": "kg"
                }
              },
              {
                "code": {
                  "coding": [
                    {
                      "system": "http://loinc.org",
                      "code": "39156-5",
                      "display": "Body mass index (BMI)"
                    }
                  ],
                  "text": "BMI"
                },
                "valueQuantity": {
                  "value": 27.22,
                  "unit": "kg/m2",
                  "system": "http://unitsofmeasure.org",
                  "code": "kg/m2"
                }
              }
            ],
            "id": "457f442c-5ca8-4fdb-af5d-335e835aab5c"
          },
          "request": {
            "method": "PUT",
            "url": "/Observation/457f442c-5ca8-4fdb-af5d-335e835aab5c"
          }
        },
        {
          "fullUrl": "https://twcore.hapi.fhir.tw//Patient/efb5e717-bb39-4596-a863-32103b3b6cd1",
          "resource": {
            "resourceType": "Patient",
            "meta": {
              "profile": [
                "https://twcore.mohw.gov.tw/ig/twcore/StructureDefinition/Patient-twcore"
              ]
            },
            "identifier": [
              {
                "system": "http://hospital.local/patient-id",
                "value": "李-秀枝-1924-05-25"
              }
            ],
            "name": [
              {
                "use": "official",
                "family": "李",
                "given": [
                  "秀枝"
                ]
              }
            ],
            "gender": "female",
            "birthDate": "1924-05-25",
            "managingOrganization": {
              "reference": "Organization/0602030026"
            },
            "id": "李-秀枝-1924-05-25"
          },
          "request": {
            "method": "PUT",
            "url": "/Patient/efb5e717-bb39-4596-a863-32103b3b6cd1"
          }
        },
        {
          "fullUrl": "https://twcore.hapi.fhir.tw//Observation/8dc7c742-f167-4db6-a6fc-450da0ab56bc",
          "resource": {
            "resourceType": "Observation",
            "meta": {
              "profile": [
                "https://twcore.mohw.gov.tw/ig/twcore/StructureDefinition/Observation-vitalSigns-twcore"
              ]
            },
            "status": "final",
            "category": [
              {
                "coding": [
                  {
                    "system": "http://terminology.hl7.org/CodeSystem/observation-category",
                    "code": "vital-signs",
                    "display": "Vital Signs"
                  }
                ]
              }
            ],
            "code": {
              "coding": [
                {
                  "system": "http://loinc.org",
                  "code": "85353-1",
                  "display": "Vital signs, weight, height, head circumference, oxygen saturation and BMI panel"
                }
              ],
              "text": "Vital Signs Panel"
            },
            "subject": {
              "reference": "Patient/李-秀枝-1924-05-25"
            },
            "component": [
              {
                "code": {
                  "coding": [
                    {
                      "system": "http://loinc.org",
                      "code": "8302-2",
                      "display": "Body height"
                    }
                  ],
                  "text": "Body Height"
                },
                "valueQuantity": {
                  "value": 162.3,
                  "unit": "cm",
                  "system": "http://unitsofmeasure.org",
                  "code": "cm"
                }
              },
              {
                "code": {
                  "coding": [
                    {
                      "system": "http://loinc.org",
                      "code": "29463-7",
                      "display": "Body weight"
                    }
                  ],
                  "text": "Body Weight"
                },
                "valueQuantity": {
                  "value": 40,
                  "unit": "kg",
                  "system": "http://unitsofmeasure.org",
                  "code": "kg"
                }
              },
              {
                "code": {
                  "coding": [
                    {
                      "system": "http://loinc.org",
                      "code": "39156-5",
                      "display": "Body mass index (BMI)"
                    }
                  ],
                  "text": "BMI"
                },
                "valueQuantity": {
                  "value": 15.19,
                  "unit": "kg/m2",
                  "system": "http://unitsofmeasure.org",
                  "code": "kg/m2"
                }
              }
            ],
            "id": "8dc7c742-f167-4db6-a6fc-450da0ab56bc"
          },
          "request": {
            "method": "PUT",
            "url": "/Observation/8dc7c742-f167-4db6-a6fc-450da0ab56bc"
          }
        },
        {
          "fullUrl": "https://twcore.hapi.fhir.tw//Patient/8411f90d-c744-4f72-b0e5-2c2f70ad0fa6",
          "resource": {
            "resourceType": "Patient",
            "meta": {
              "profile": [
                "https://twcore.mohw.gov.tw/ig/twcore/StructureDefinition/Patient-twcore"
              ]
            },
            "identifier": [
              {
                "system": "http://hospital.local/patient-id",
                "value": "吳-雅慧-1921-12-03"
              }
            ],
            "name": [
              {
                "use": "official",
                "family": "吳",
                "given": [
                  "雅慧"
                ]
              }
            ],
            "gender": "female",
            "birthDate": "1921-12-03",
            "managingOrganization": {
              "reference": "Organization/0602030026"
            },
            "id": "吳-雅慧-1921-12-03"
          },
          "request": {
            "method": "PUT",
            "url": "/Patient/8411f90d-c744-4f72-b0e5-2c2f70ad0fa6"
          }
        },
        {
          "fullUrl": "https://twcore.hapi.fhir.tw//Observation/061c792f-7839-46be-ad3e-8031b2a45510",
          "resource": {
            "resourceType": "Observation",
            "meta": {
              "profile": [
                "https://twcore.mohw.gov.tw/ig/twcore/StructureDefinition/Observation-vitalSigns-twcore"
              ]
            },
            "status": "final",
            "category": [
              {
                "coding": [
                  {
                    "system": "http://terminology.hl7.org/CodeSystem/observation-category",
                    "code": "vital-signs",
                    "display": "Vital Signs"
                  }
                ]
              }
            ],
            "code": {
              "coding": [
                {
                  "system": "http://loinc.org",
                  "code": "85353-1",
                  "display": "Vital signs, weight, height, head circumference, oxygen saturation and BMI panel"
                }
              ],
              "text": "Vital Signs Panel"
            },
            "subject": {
              "reference": "Patient/吳-雅慧-1921-12-03"
            },
            "component": [
              {
                "code": {
                  "coding": [
                    {
                      "system": "http://loinc.org",
                      "code": "8302-2",
                      "display": "Body height"
                    }
                  ],
                  "text": "Body Height"
                },
                "valueQuantity": {
                  "value": 166.1,
                  "unit": "cm",
                  "system": "http://unitsofmeasure.org",
                  "code": "cm"
                }
              },
              {
                "code": {
                  "coding": [
                    {
                      "system": "http://loinc.org",
                      "code": "29463-7",
                      "display": "Body weight"
                    }
                  ],
                  "text": "Body Weight"
                },
                "valueQuantity": {
                  "value": 58.3,
                  "unit": "kg",
                  "system": "http://unitsofmeasure.org",
                  "code": "kg"
                }
              },
              {
                "code": {
                  "coding": [
                    {
                      "system": "http://loinc.org",
                      "code": "39156-5",
                      "display": "Body mass index (BMI)"
                    }
                  ],
                  "text": "BMI"
                },
                "valueQuantity": {
                  "value": 21.13,
                  "unit": "kg/m2",
                  "system": "http://unitsofmeasure.org",
                  "code": "kg/m2"
                }
              }
            ],
            "id": "061c792f-7839-46be-ad3e-8031b2a45510"
          },
          "request": {
            "method": "PUT",
            "url": "/Observation/061c792f-7839-46be-ad3e-8031b2a45510"
          }
        },
        {
          "fullUrl": "https://twcore.hapi.fhir.tw//Patient/a0a9c720-71ad-451d-a3b6-85a03a9f12b4",
          "resource": {
            "resourceType": "Patient",
            "meta": {
              "profile": [
                "https://twcore.mohw.gov.tw/ig/twcore/StructureDefinition/Patient-twcore"
              ]
            },
            "identifier": [
              {
                "system": "http://hospital.local/patient-id",
                "value": "章-建志-2019-01-04"
              }
            ],
            "name": [
              {
                "use": "official",
                "family": "章",
                "given": [
                  "建志"
                ]
              }
            ],
            "gender": "male",
            "birthDate": "2019-01-04",
            "managingOrganization": {
              "reference": "Organization/0602030026"
            },
            "id": "章-建志-2019-01-04"
          },
          "request": {
            "method": "PUT",
            "url": "/Patient/a0a9c720-71ad-451d-a3b6-85a03a9f12b4"
          }
        },
        {
          "fullUrl": "https://twcore.hapi.fhir.tw//Observation/cb0676d0-724a-4daa-b1a9-e8340b2fbf4f",
          "resource": {
            "resourceType": "Observation",
            "meta": {
              "profile": [
                "https://twcore.mohw.gov.tw/ig/twcore/StructureDefinition/Observation-vitalSigns-twcore"
              ]
            },
            "status": "final",
            "category": [
              {
                "coding": [
                  {
                    "system": "http://terminology.hl7.org/CodeSystem/observation-category",
                    "code": "vital-signs",
                    "display": "Vital Signs"
                  }
                ]
              }
            ],
            "code": {
              "coding": [
                {
                  "system": "http://loinc.org",
                  "code": "85353-1",
                  "display": "Vital signs, weight, height, head circumference, oxygen saturation and BMI panel"
                }
              ],
              "text": "Vital Signs Panel"
            },
            "subject": {
              "reference": "Patient/章-建志-2019-01-04"
            },
            "component": [
              {
                "code": {
                  "coding": [
                    {
                      "system": "http://loinc.org",
                      "code": "8302-2",
                      "display": "Body height"
                    }
                  ],
                  "text": "Body Height"
                },
                "valueQuantity": {
                  "value": 189.1,
                  "unit": "cm",
                  "system": "http://unitsofmeasure.org",
                  "code": "cm"
                }
              },
              {
                "code": {
                  "coding": [
                    {
                      "system": "http://loinc.org",
                      "code": "29463-7",
                      "display": "Body weight"
                    }
                  ],
                  "text": "Body Weight"
                },
                "valueQuantity": {
                  "value": 73.7,
                  "unit": "kg",
                  "system": "http://unitsofmeasure.org",
                  "code": "kg"
                }
              },
              {
                "code": {
                  "coding": [
                    {
                      "system": "http://loinc.org",
                      "code": "39156-5",
                      "display": "Body mass index (BMI)"
                    }
                  ],
                  "text": "BMI"
                },
                "valueQuantity": {
                  "value": 20.61,
                  "unit": "kg/m2",
                  "system": "http://unitsofmeasure.org",
                  "code": "kg/m2"
                }
              }
            ],
            "id": "cb0676d0-724a-4daa-b1a9-e8340b2fbf4f"
          },
          "request": {
            "method": "PUT",
            "url": "/Observation/cb0676d0-724a-4daa-b1a9-e8340b2fbf4f"
          }
        },
        {
          "fullUrl": "https://twcore.hapi.fhir.tw//Patient/b74ac392-0bb5-4c43-a271-9d9f308c5393",
          "resource": {
            "resourceType": "Patient",
            "meta": {
              "profile": [
                "https://twcore.mohw.gov.tw/ig/twcore/StructureDefinition/Patient-twcore"
              ]
            },
            "identifier": [
              {
                "system": "http://hospital.local/patient-id",
                "value": "王-志雄-1959-11-30"
              }
            ],
            "name": [
              {
                "use": "official",
                "family": "王",
                "given": [
                  "志雄"
                ]
              }
            ],
            "gender": "male",
            "birthDate": "1959-11-30",
            "managingOrganization": {
              "reference": "Organization/0602030026"
            },
            "id": "王-志雄-1959-11-30"
          },
          "request": {
            "method": "PUT",
            "url": "/Patient/b74ac392-0bb5-4c43-a271-9d9f308c5393"
          }
        },
        {
          "fullUrl": "https://twcore.hapi.fhir.tw//Observation/0ee25512-d285-4079-9741-34f1c7f388d5",
          "resource": {
            "resourceType": "Observation",
            "meta": {
              "profile": [
                "https://twcore.mohw.gov.tw/ig/twcore/StructureDefinition/Observation-vitalSigns-twcore"
              ]
            },
            "status": "final",
            "category": [
              {
                "coding": [
                  {
                    "system": "http://terminology.hl7.org/CodeSystem/observation-category",
                    "code": "vital-signs",
                    "display": "Vital Signs"
                  }
                ]
              }
            ],
            "code": {
              "coding": [
                {
                  "system": "http://loinc.org",
                  "code": "85353-1",
                  "display": "Vital signs, weight, height, head circumference, oxygen saturation and BMI panel"
                }
              ],
              "text": "Vital Signs Panel"
            },
            "subject": {
              "reference": "Patient/王-志雄-1959-11-30"
            },
            "component": [
              {
                "code": {
                  "coding": [
                    {
                      "system": "http://loinc.org",
                      "code": "8302-2",
                      "display": "Body height"
                    }
                  ],
                  "text": "Body Height"
                },
                "valueQuantity": {
                  "value": 165.2,
                  "unit": "cm",
                  "system": "http://unitsofmeasure.org",
                  "code": "cm"
                }
              },
              {
                "code": {
                  "coding": [
                    {
                      "system": "http://loinc.org",
                      "code": "29463-7",
                      "display": "Body weight"
                    }
                  ],
                  "text": "Body Weight"
                },
                "valueQuantity": {
                  "value": 70.2,
                  "unit": "kg",
                  "system": "http://unitsofmeasure.org",
                  "code": "kg"
                }
              },
              {
                "code": {
                  "coding": [
                    {
                      "system": "http://loinc.org",
                      "code": "39156-5",
                      "display": "Body mass index (BMI)"
                    }
                  ],
                  "text": "BMI"
                },
                "valueQuantity": {
                  "value": 25.72,
                  "unit": "kg/m2",
                  "system": "http://unitsofmeasure.org",
                  "code": "kg/m2"
                }
              }
            ],
            "id": "0ee25512-d285-4079-9741-34f1c7f388d5"
          },
          "request": {
            "method": "PUT",
            "url": "/Observation/0ee25512-d285-4079-9741-34f1c7f388d5"
          }
        }
      ]
    }
  }
}