{
  "bundle": {
    "resourceType": "Bundle",
    "type": "transaction",
    "entry": [
      {
        "fullUrl": "https://twcore.hapi.fhir.tw//Organization/555722ea-4f10-4738-8107-3e6c5baa9156",
        "resource": {
          "id": "555722ea-4f10-4738-8107-3e6c5baa9156",
          "resourceType": "Organization",
          "name": "Kaohsiung Veterans General Hospital"
        },
        "request": {
          "method": "PUT",
          "url": "Organization/555722ea-4f10-4738-8107-3e6c5baa9156"
        }
      },
      {
        "fullUrl": "https://twcore.hapi.fhir.tw//Patient/bafe0ba8-3000-428b-8a5c-2a3949b72f44",
        "resource": {
          "resourceType": "Patient",
          "meta": {
            "profile": [
              "https://twcore.mohw.gov.tw/ig/twcore/StructureDefinition/Patient-twcore"
            ]
          },
          "identifier": [
            {
              "system": "http://hospital.local/patient-id",
              "value": "Allen-Ray-1975-07-20"
            }
          ],
          "name": [
            [
              {
                "use": "official",
                "family": "Allen",
                "given": [
                  "Ray"
                ]
              }
            ]
          ],
          "gender": "male",
          "birthDate": "1975-07-20",
          "managingOrganization": {
            "reference": "Organization/555722ea-4f10-4738-8107-3e6c5baa9156"
          },
          "id": "Allen-Ray-1975-07-20"
        },
        "request": {
          "method": "PUT",
          "url": "/Patient/bafe0ba8-3000-428b-8a5c-2a3949b72f44"
        }
      },
      {
        "fullUrl": "https://twcore.hapi.fhir.tw//Observation/da0b70ea-55af-431c-b2e0-2fca0e3579ce",
        "resource": {
          "resourceType": "Observation",
          "meta": {
            "profile": [
              "https://twcore.mohw.gov.tw/ig/twcore/StructureDefinition/Observation-vitalSigns-twcore"
            ]
          },
          "status": "final",
          "category": [
            {
              "coding": [
                {
                  "system": "http://terminology.hl7.org/CodeSystem/observation-category",
                  "code": "vital-signs",
                  "display": "Vital Signs"
                }
              ]
            }
          ],
          "code": {
            "coding": [
              {
                "system": "http://loinc.org",
                "code": "85353-1",
                "display": "Vital signs, weight, height, head circumference, oxygen saturation and BMI panel"
              }
            ],
            "text": "Vital Signs Panel"
          },
          "subject": {
            "reference": "Patient/Allen-Ray-1975-07-20"
          },
          "component": [
            {
              "code": {
                "coding": [
                  {
                    "system": "http://loinc.org",
                    "code": "8302-2",
                    "display": "Body height"
                  }
                ],
                "text": "Body Height"
              },
              "valueQuantity": {
                "value": 196,
                "unit": "cm",
                "system": "http://unitsofmeasure.org",
                "code": "cm"
              }
            },
            {
              "code": {
                "coding": [
                  {
                    "system": "http://loinc.org",
                    "code": "29463-7",
                    "display": "Body weight"
                  }
                ],
                "text": "Body Weight"
              },
              "valueQuantity": {
                "value": 93,
                "unit": "kg",
                "system": "http://unitsofmeasure.org",
                "code": "kg"
              }
            },
            {
              "code": {
                "coding": [
                  {
                    "system": "http://loinc.org",
                    "code": "39156-5",
                    "display": "Body mass index (BMI)"
                  }
                ],
                "text": "BMI"
              },
              "valueQuantity": {
                "value": 24.21,
                "unit": "kg/m2",
                "system": "http://unitsofmeasure.org",
                "code": "kg/m2"
              }
            }
          ],
          "id": "da0b70ea-55af-431c-b2e0-2fca0e3579ce"
        },
        "request": {
          "method": "PUT",
          "url": "/Observation/da0b70ea-55af-431c-b2e0-2fca0e3579ce"
        }
      },
      {
        "fullUrl": "https://twcore.hapi.fhir.tw//Patient/f831c681-34e5-4237-b5dd-40f233604178",
        "resource": {
          "resourceType": "Patient",
          "meta": {
            "profile": [
              "https://twcore.mohw.gov.tw/ig/twcore/StructureDefinition/Patient-twcore"
            ]
          },
          "identifier": [
            {
              "system": "http://hospital.local/patient-id",
              "value": "Derrick-Rose-1988-10-04"
            }
          ],
          "name": [
            [
              {
                "use": "official",
                "family": "Rose",
                "given": [
                  "Derrick"
                ]
              }
            ]
          ],
          "gender": "male",
          "birthDate": "1988-10-04",
          "managingOrganization": {
            "reference": "Organization/555722ea-4f10-4738-8107-3e6c5baa9156"
          },
          "id": "Derrick-Rose-1988-10-04"
        },
        "request": {
          "method": "PUT",
          "url": "/Patient/f831c681-34e5-4237-b5dd-40f233604178"
        }
      },
      {
        "fullUrl": "https://twcore.hapi.fhir.tw//Observation/e5972250-f3e2-444a-9b64-d48250117578",
        "resource": {
          "resourceType": "Observation",
          "meta": {
            "profile": [
              "https://twcore.mohw.gov.tw/ig/twcore/StructureDefinition/Observation-vitalSigns-twcore"
            ]
          },
          "status": "final",
          "category": [
            {
              "coding": [
                {
                  "system": "http://terminology.hl7.org/CodeSystem/observation-category",
                  "code": "vital-signs",
                  "display": "Vital Signs"
                }
              ]
            }
          ],
          "code": {
            "coding": [
              {
                "system": "http://loinc.org",
                "code": "85353-1",
                "display": "Vital signs, weight, height, head circumference, oxygen saturation and BMI panel"
              }
            ],
            "text": "Vital Signs Panel"
          },
          "subject": {
            "reference": "Patient/Derrick-Rose-1988-10-04"
          },
          "component": [
            {
              "code": {
                "coding": [
                  {
                    "system": "http://loinc.org",
                    "code": "8302-2",
                    "display": "Body height"
                  }
                ],
                "text": "Body Height"
              },
              "valueQuantity": {
                "value": 191,
                "unit": "cm",
                "system": "http://unitsofmeasure.org",
                "code": "cm"
              }
            },
            {
              "code": {
                "coding": [
                  {
                    "system": "http://loinc.org",
                    "code": "29463-7",
                    "display": "Body weight"
                  }
                ],
                "text": "Body Weight"
              },
              "valueQuantity": {
                "value": 91,
                "unit": "kg",
                "system": "http://unitsofmeasure.org",
                "code": "kg"
              }
            },
            {
              "code": {
                "coding": [
                  {
                    "system": "http://loinc.org",
                    "code": "39156-5",
                    "display": "Body mass index (BMI)"
                  }
                ],
                "text": "BMI"
              },
              "valueQuantity": {
                "value": 24.94,
                "unit": "kg/m2",
                "system": "http://unitsofmeasure.org",
                "code": "kg/m2"
              }
            }
          ],
          "id": "e5972250-f3e2-444a-9b64-d48250117578"
        },
        "request": {
          "method": "PUT",
          "url": "/Observation/e5972250-f3e2-444a-9b64-d48250117578"
        }
      }
    ]
  }
}